run.order.file,run.system.seconds_since_epoch,run.system.time,trial.staircase.durationFrames,trial.staircase.thisTrialN,trial.system.seconds_since_epoch,trial.system.time,trial.number,time.onset,trial.response,trial.staircase_stim_duration,trial.rt,trial.stim_duration,trial.should_nudge,trial.reward,total_earnings,fix.after.feedback.adjusted,time.trial,time.run,time.global,subid,session,run,trial.type,fix.after.cue,fix.after.stim,fix.after.feedback,trial.cue_rt,trial.too_fast_rt,participant,session,fMRI? (yes or no),fMRI trigger on TTL? (yes or no),fMRI reverse screen? (yes or no),use ranged rewards?,use nudge for final run?,do only a single behavioral practice run?,start run (0-3),staircase start reward.low,staircase start reward.high,staircase start neutral,staircase start loss.low,staircase start loss.high,date,expName,frameRate,
C:\Users\Lab\Desktop\MID\orders\9517.csv,1650892491.1483333,Mon Apr 25 15:14:51 2022,,,,,,,,,,,,,,,,,,,1,,,,,,,,005,1,yes,yes,no,no,no,no,1,15,15,15,15,15,2022-04-25_15h11.06.837,MID1.0,59.986922946756856,
,,,15,0,1650892496.161081,Mon Apr 25 15:14:56 2022,1,226.98586799995974,1,0.35,0.34969850024208426,0.34969850024208426,False,10,10,3.778613773174584,12.566881099715829,17.579513300210238,239.5527554997243,5,1,1,reward.low,2.1653490407625213,2.0792026810813695,3.628312273416668,,,005,1,yes,yes,no,no,no,no,1,15,15,15,15,15,2022-04-25_15h11.06.837,MID1.0,59.986922946756856,
,,,15,0,1650892508.7277095,Mon Apr 25 15:15:08 2022,2,239.55281660007313,1,0.35,0.33408989990130067,0.33408989990130067,False,70,80,3.954676028341055,13.183786700014025,30.763365200255066,252.73660619976,5,1,1,reward.high,2.574413944967091,2.1141984887071885,3.7887659282423556,,,005,1,yes,yes,no,no,no,no,1,15,15,15,15,15,2022-04-25_15h11.06.837,MID1.0,59.986922946756856,
,,,15,0,1650892521.9117656,Mon Apr 25 15:15:21 2022,3,252.73665420012549,1,0.35,0.3496787999756634,0.3496787999756634,False,0,80,4.84615174960345,14.067101099994034,44.830517900176346,266.8037585001439,5,1,1,neutral,2.134978090005461,2.5202518505393527,4.695830549579114,,,005,1,yes,yes,no,no,no,no,1,15,15,15,15,15,2022-04-25_15h11.06.837,MID1.0,59.986922946756856,
,,,15,0,1650892535.9789522,Mon Apr 25 15:15:35 2022,4,266.80383889982477,1,0.35,0.33356940001249313,0.33356940001249313,False,0,80,3.227381066419184,12.816768399905413,57.647370300255716,279.6206108001061,5,1,1,loss.low,2.423522988334298,2.634005699190311,3.0609504664316773,,,005,1,yes,yes,no,no,no,no,1,15,15,15,15,15,2022-04-25_15h11.06.837,MID1.0,59.986922946756856,
,,,15,0,1650892548.7959561,Mon Apr 25 15:15:48 2022,5,279.62067129975185,1,0.35,0.3334077000617981,0.3334077000617981,False,0,80,3.9067012243904173,13.366981599945575,71.01441590022296,292.98765649972484,5,1,1,loss.high,2.4555490892380476,2.454556481388863,3.7401089244522154,,,005,1,yes,yes,no,no,no,no,1,15,15,15,15,15,2022-04-25_15h11.06.837,MID1.0,59.986922946756856,
,,,13,1,1650892562.1630197,Mon Apr 25 15:16:02 2022,6,292.987714599818,1,0.31666666666666665,0.31668590009212494,0.31668590009212494,False,0,80,5.02150704478845,14.317135300021619,85.33161360025406,307.304854599759,5,1,1,loss.low,2.446435405407101,2.323505782231223,4.838192944880575,,,005,1,yes,yes,no,no,no,no,1,15,15,15,15,15,2022-04-25_15h11.06.837,MID1.0,59.986922946756856,
,,,13,1,1650892576.4799893,Mon Apr 25 15:16:16 2022,7,307.30489789973944,1,0.31666666666666665,0.31655750004574656,0.31655750004574656,False,10,90,4.415928644593805,14.033231599722058,99.36489209998399,321.3381328000687,5,1,1,reward.low,2.557393870141823,2.507340423821006,4.232486144639552,,,005,1,yes,yes,no,no,no,no,1,15,15,15,15,15,2022-04-25_15h11.06.837,MID1.0,59.986922946756856,
,,,13,1,1650892590.5131054,Mon Apr 25 15:16:30 2022,8,321.3381751999259,0,0.31666666666666665,,0.31666666666666665,False,0,90,4.002108799759299,13.717669200152159,113.08260759990662,335.0558507000096,5,1,1,reward.high,2.44354367867345,2.7250166896847077,4.002108799759299,,,005,1,yes,yes,no,no,no,no,1,15,15,15,15,15,2022-04-25_15h11.06.837,MID1.0,59.986922946756856,
,,,11,2,1650892604.231372,Mon Apr 25 15:16:44 2022,9,335.0558938998729,1,0.2833333333333333,0.26692700013518333,0.26692700013518333,False,10,100,4.666062457021326,13.650042700115591,126.73269900027663,348.70593929989263,5,1,1,reward.low,2.142254171136301,2.313176589901559,4.432989457156509,,,005,1,yes,yes,no,no,no,no,1,15,15,15,15,15,2022-04-25_15h11.06.837,MID1.0,59.986922946756856,
,,,13,1,1650892617.8805773,Mon Apr 25 15:16:57 2022,10,348.70597939984873,1,0.31666666666666665,0.3173197000287473,0.3173197000287473,False,0,100,4.9864315879531205,13.967213499825448,140.69995660008863,362.6731976000592,5,1,1,loss.high,2.2862745189340785,2.1412710243603215,4.803751287981868,,,005,1,yes,yes,no,no,no,no,1,15,15,15,15,15,2022-04-25_15h11.06.837,MID1.0,59.986922946756856,
,,,11,2,1650892631.8483424,Mon Apr 25 15:17:11 2022,11,362.6732453997247,0,0.2833333333333333,,0.2833333333333333,False,-10,90,3.3557257489301264,13.217017900198698,153.91702650021762,375.89026780007407,5,1,1,loss.low,2.6755064519820735,2.6585447714314796,3.3557257489301264,,,005,1,yes,yes,no,no,no,no,1,15,15,15,15,15,2022-04-25_15h11.06.837,MID1.0,59.986922946756856,
,,,13,1,1650892645.0653615,Mon Apr 25 15:17:25 2022,12,375.8903141999617,1,0.31666666666666665,0.2998334001749754,0.2998334001749754,False,0,90,4.816661415621638,14.066949300002307,167.9840263002552,389.9572665998712,5,1,1,neutral,2.0011281503830105,2.6918025779887103,4.616494815796614,,,005,1,yes,yes,no,no,no,no,1,15,15,15,15,15,2022-04-25_15h11.06.837,MID1.0,59.986922946756856,
,,,13,3,1650892659.1325064,Mon Apr 25 15:17:39 2022,13,389.9573467001319,1,0.31666666666666665,0.3165199002251029,0.3165199002251029,False,0,90,4.423922099173069,13.733428200241178,181.71753890020773,403.6907794000581,5,1,1,loss.low,2.4264765715925023,2.328058002749458,4.240441999398172,,,005,1,yes,yes,no,no,no,no,1,15,15,15,15,15,2022-04-25_15h11.06.837,MID1.0,59.986922946756856,
,,,11,2,1650892672.8660383,Mon Apr 25 15:17:52 2022,14,403.6908170999959,1,0.2833333333333333,0.28281630016863346,0.28281630016863346,False,0,90,4.980567511636764,14.567352400161326,196.28493290022016,418.25817319983616,5,1,1,neutral,2.3516685076756403,2.694897900451906,4.763383811805397,,,005,1,yes,yes,no,no,no,no,1,15,15,15,15,15,2022-04-25_15h11.06.837,MID1.0,59.986922946756856,
,,,9,3,1650892687.4330816,Mon Apr 25 15:18:07 2022,15,418.2582427999005,0,0.25,,0.25,False,0,90,4.316805738955736,13.300283800344914,209.58527640020475,431.5585169997066,5,1,1,reward.low,2.153182982292492,2.2727560672792606,4.316805738955736,,,005,1,yes,yes,no,no,no,no,1,15,15,15,15,15,2022-04-25_15h11.06.837,MID1.0,59.986922946756856,
,,,9,3,1650892700.733532,Mon Apr 25 15:18:20 2022,16,431.5585882999003,0,0.25,,0.25,False,0,90,4.223624360281974,13.966181899886578,223.55153350019827,445.52477400004864,5,1,1,neutral,2.7372039795154706,2.4618616945226677,4.223624360281974,,,005,1,yes,yes,no,no,no,no,1,15,15,15,15,15,2022-04-25_15h11.06.837,MID1.0,59.986922946756856,
,,,11,2,1650892714.6997654,Mon Apr 25 15:18:34 2022,17,445.5248122001067,0,0.2833333333333333,,0.2833333333333333,False,-70,20,4.792099054902792,14.034523699898273,237.58609890006483,459.5593392001465,5,1,1,loss.high,2.1390979475108907,2.5672089079744183,4.792099054902792,,,005,1,yes,yes,no,no,no,no,1,15,15,15,15,15,2022-04-25_15h11.06.837,MID1.0,59.986922946756856,
,,,11,4,1650892728.7345512,Mon Apr 25 15:18:48 2022,18,459.55941529991105,0,0.2833333333333333,,0.2833333333333333,False,0,20,3.305531869176775,12.750076599884778,250.33625520020723,472.30949549982324,5,1,1,neutral,2.6391632628510706,2.26550222246442,3.305531869176775,,,005,1,yes,yes,no,no,no,no,1,15,15,15,15,15,2022-04-25_15h11.06.837,MID1.0,59.986922946756856,
,,,13,5,1650892741.484246,Mon Apr 25 15:19:01 2022,19,472.30953409988433,0,0.31666666666666665,,0.31666666666666665,False,0,20,4.924384995829314,14.433541900012642,264.7698415000923,486.743083700072,5,1,1,neutral,2.6665615084348246,2.318985368241556,4.724667995702475,0.4331111996434629,,005,1,yes,yes,no,no,no,no,1,15,15,15,15,15,2022-04-25_15h11.06.837,MID1.0,59.986922946756856,
,,,15,2,1650892755.9180114,Mon Apr 25 15:19:15 2022,20,486.7431381000206,1,0.35,0.3338262001052499,0.3338262001052499,False,70,90,4.32361426204443,14.31722480012104,279.08712400030345,501.0603676997125,5,1,1,reward.high,2.710408403596375,2.737264832132496,4.15744046214968,,,005,1,yes,yes,no,no,no,no,1,15,15,15,15,15,2022-04-25_15h11.06.837,MID1.0,59.986922946756856,
,,,13,3,1650892770.2356877,Mon Apr 25 15:19:30 2022,21,501.06040799990296,1,0.31666666666666665,0.30116220004856586,0.30116220004856586,False,0,90,3.4217499662190676,12.050362600013614,291.13753350032493,513.1107739000581,5,1,1,loss.high,2.054044511169195,2.016956996114459,3.2229121662676334,,,005,1,yes,yes,no,no,no,no,1,15,15,15,15,15,2022-04-25_15h11.06.837,MID1.0,59.986922946756856,
,,,13,4,1650892782.2860644,Mon Apr 25 15:19:42 2022,22,513.1108122998849,1,0.31666666666666665,0.30021779984235764,0.30021779984235764,False,0,90,5.057004100643098,14.967244999948889,306.10482060024515,528.0780609999783,5,1,1,loss.high,2.6447455949964933,2.727654263144359,4.857221900485456,,,005,1,yes,yes,no,no,no,no,1,15,15,15,15,15,2022-04-25_15h11.06.837,MID1.0,59.986922946756856,
,,,15,3,1650892797.2531805,Mon Apr 25 15:19:57 2022,23,528.0780977997929,1,0.35,0.35018490022048354,0.35018490022048354,False,70,160,4.572681231889874,14.133450500201434,320.2383119999431,542.2115532997996,5,1,1,reward.high,2.2787806115229614,2.723392582789529,4.422866132110357,,,005,1,yes,yes,no,no,no,no,1,15,15,15,15,15,2022-04-25_15h11.06.837,MID1.0,59.986922946756856,
,,,15,6,1650892811.386491,Mon Apr 25 15:20:11 2022,24,542.2115972000174,1,0.35,0.33346450002864003,0.33346450002864003,False,0,160,4.122108139563352,13.700517400167882,333.9388784999028,555.9121197997592,5,1,1,neutral,2.4903394134598784,2.52923104778165,3.955572639591992,,,005,1,yes,yes,no,no,no,no,1,15,15,15,15,15,2022-04-25_15h11.06.837,MID1.0,59.986922946756856,
,,,14,4,1650892825.0868828,Mon Apr 25 15:20:25 2022,25,555.9121694997884,1,0.33333333333333337,0.3166497997008264,0.3166497997008264,False,70,230,4.6534560532309115,14.416276100091636,348.3552073002793,570.3284483999014,5,1,1,reward.high,2.500132371264044,2.7174228844814934,4.470105852931738,,,005,1,yes,yes,no,no,no,no,1,15,15,15,15,15,2022-04-25_15h11.06.837,MID1.0,59.986922946756856,
,,,15,7,1650892839.5039866,Mon Apr 25 15:20:39 2022,26,570.3284915997647,1,0.35,0.3498348998837173,0.3498348998837173,False,0,230,4.822427809704095,14.16758710006252,362.5228414000012,584.4960817997344,5,1,1,neutral,2.236544006736949,2.5537439580075443,4.672262709587812,,,005,1,yes,yes,no,no,no,no,1,15,15,15,15,15,2022-04-25_15h11.06.837,MID1.0,59.986922946756856,
,,,13,4,1650892853.671345,Mon Apr 25 15:20:53 2022,27,584.4961216999218,1,0.31666666666666665,0.317399799823761,0.317399799823761,False,0,230,4.481208350975066,13.683809400070459,376.20669450005516,598.1799348997883,5,1,1,loss.low,2.237382804742083,2.43204567884095,4.298608150798827,,,005,1,yes,yes,no,no,no,no,1,15,15,15,15,15,2022-04-25_15h11.06.837,MID1.0,59.986922946756856,
,,,11,4,1650892867.3552587,Mon Apr 25 15:21:07 2022,28,598.1800088998862,1,0.2833333333333333,0.28388290014117956,0.28388290014117956,False,10,240,4.618815658148378,13.883726600091904,390.09048740006983,612.0637294999324,5,1,1,reward.low,2.487962164974306,2.227501795394346,4.402698558289558,,,005,1,yes,yes,no,no,no,no,1,15,15,15,15,15,2022-04-25_15h11.06.837,MID1.0,59.986922946756856,
,,,14,8,1650892881.2384956,Mon Apr 25 15:21:21 2022,29,612.0637849001214,1,0.33333333333333337,0.333419700153172,0.333419700153172,False,0,240,3.346936709713191,12.799862700048834,402.8904090002179,624.8636495000683,5,1,1,neutral,2.6255146620678715,2.2755264958250336,3.180356409866363,,,005,1,yes,yes,no,no,no,no,1,15,15,15,15,15,2022-04-25_15h11.06.837,MID1.0,59.986922946756856,
,,,14,9,1650892894.0389767,Mon Apr 25 15:21:34 2022,30,624.8636949998327,1,0.33333333333333337,0.3330340003594756,0.3330340003594756,False,0,240,18.166965999640524,27.634415400214493,430.524873400107,652.4981141998433,5,1,1,neutral,2.615973222476896,2.3098291593487374,18,,,005,1,yes,yes,no,no,no,no,1,15,15,15,15,15,2022-04-25_15h11.06.837,MID1.0,59.986922946756856,
C:\Users\Lab\Desktop\MID\orders\1034.csv,1650892966.1159315,Mon Apr 25 15:22:46 2022,,,,,,,,,,,,,,,,,,,1,,,,,,,,005,1,yes,yes,no,no,no,no,1,15,15,15,15,15,2022-04-25_15h11.06.837,MID1.0,59.986922946756856,
,,,11,5,1650892971.124622,Mon Apr 25 15:22:51 2022,31,701.9494062997401,1,0.2833333333333333,0.2837797002866864,0.2837797002866864,False,10,250,3.4399257698096335,13.233638899866492,18.24213230004534,715.1830473998562,5,1,2,reward.low,2.6775126488064416,2.5740525328437798,3.22370547009632,,,005,1,yes,yes,no,no,no,no,1,15,15,15,15,15,2022-04-25_15h11.06.837,MID1.0,59.986922946756856,
,,,14,5,1650892984.3584325,Mon Apr 25 15:23:04 2022,32,715.1830850001425,1,0.33333333333333337,0.31692220037803054,0.31692220037803054,False,70,320,4.034695479087532,13.434109900146723,31.676285600289702,728.6172023001127,5,1,2,reward.high,2.446331720217131,2.4182149167754687,3.851617679465562,,,005,1,yes,yes,no,no,no,no,1,15,15,15,15,15,2022-04-25_15h11.06.837,MID1.0,59.986922946756856,
,,,12,5,1650892997.79246,Mon Apr 25 15:23:17 2022,33,728.6172551000491,1,0.30000000000000004,0.30051099974662066,0.30051099974662066,False,0,320,4.288998641539365,13.283381100278348,44.95972360018641,741.9006392001174,5,1,2,loss.low,2.105021527793724,2.3321484902407974,4.089509641285986,,,005,1,yes,yes,no,no,no,no,1,15,15,15,15,15,2022-04-25_15h11.06.837,MID1.0,59.986922946756856,
,,,10,6,1650893011.075403,Mon Apr 25 15:23:31 2022,34,741.900683300104,0,0.26666666666666666,,0.26666666666666666,False,0,320,3.3562119067646563,13.300330899655819,58.26010229997337,755.2010172000155,5,1,2,reward.low,2.647419962042477,2.735350033501163,3.3562119067646563,,,005,1,yes,yes,no,no,no,no,1,15,15,15,15,15,2022-04-25_15h11.06.837,MID1.0,59.986922946756856,
,,,12,5,1650893024.376288,Mon Apr 25 15:23:44 2022,35,755.2010901998729,1,0.30000000000000004,0.28391960030421615,0.28391960030421615,False,0,320,4.591754928231239,13.950095099862665,72.21027400018647,769.1511890999973,5,1,2,loss.high,2.547734331630636,2.2661177600966766,4.3756745285354555,,,005,1,yes,yes,no,no,no,no,1,15,15,15,15,15,2022-04-25_15h11.06.837,MID1.0,59.986922946756856,
,,,13,10,1650893038.3258216,Mon Apr 25 15:23:58 2022,36,769.1512269000523,1,0.31666666666666665,0.3002661997452378,0.3002661997452378,False,0,320,4.278401330113411,14.167339600156993,86.37765470007434,783.318569699768,5,1,2,neutral,2.699366988206748,2.653553388779983,4.078667529858649,,,005,1,yes,yes,no,no,no,no,1,15,15,15,15,15,2022-04-25_15h11.06.837,MID1.0,59.986922946756856,
,,,11,7,1650893052.4939501,Mon Apr 25 15:24:12 2022,37,783.3186440998688,1,0.2833333333333333,0.2830278999172151,0.2830278999172151,False,10,330,4.571283485740423,14.350380699615926,100.72811490017921,797.6690313997678,5,1,2,reward.low,2.5136634754016995,2.7173394253477454,4.354311385657638,,,005,1,yes,yes,no,no,no,no,1,15,15,15,15,15,2022-04-25_15h11.06.837,MID1.0,59.986922946756856,
,,,13,11,1650893066.844344,Mon Apr 25 15:24:26 2022,38,797.6690837000497,1,0.31666666666666665,0.31684020021930337,0.31684020021930337,False,0,330,4.42577134585008,14.133140299934894,114.86131069995463,811.8022257997654,5,1,2,neutral,2.5428366052219644,2.611890916421544,4.242611546069384,,,005,1,yes,yes,no,no,no,no,1,15,15,15,15,15,2022-04-25_15h11.06.837,MID1.0,59.986922946756856,
,,,12,6,1650893080.9774878,Mon Apr 25 15:24:40 2022,39,811.8023017998785,0,0.30000000000000004,,0.30000000000000004,False,-10,320,3.0766980522312224,11.800903600174934,126.66229479992762,823.603210600093,5,1,2,loss.low,2.0786043679108843,2.099126732617151,3.0766980522312224,,,005,1,yes,yes,no,no,no,no,1,15,15,15,15,15,2022-04-25_15h11.06.837,MID1.0,59.986922946756856,
,,,13,6,1650893092.7783053,Mon Apr 25 15:24:52 2022,40,823.6032573999837,1,0.31666666666666665,0.3173155998811126,0.3173155998811126,False,70,390,3.844638792332262,12.98355170013383,139.64589700009674,836.5868126000278,5,1,2,reward.high,2.2790360765648074,2.300986772228498,3.6619543922133744,,,005,1,yes,yes,no,no,no,no,1,15,15,15,15,15,2022-04-25_15h11.06.837,MID1.0,59.986922946756856,
,,,12,12,1650893105.7622516,Mon Apr 25 15:25:05 2022,41,836.5868584997952,1,0.30000000000000004,0.2830860000103712,0.2830860000103712,False,0,390,3.7497924668714404,13.0168387000449,152.6627850001678,849.6037006000988,5,1,2,neutral,2.4154059711145237,2.3266356669482775,3.5328784668818116,,,005,1,yes,yes,no,no,no,no,1,15,15,15,15,15,2022-04-25_15h11.06.837,MID1.0,59.986922946756856,
,,,11,8,1650893118.7788706,Mon Apr 25 15:25:18 2022,42,849.6037603998557,1,0.2833333333333333,0.26776820002123713,0.26776820002123713,False,10,400,4.282005418092012,13.466320099774748,166.12916789995506,863.070083099883,5,1,2,reward.low,2.508095243363641,2.1444119857624173,4.0497736181132495,,,005,1,yes,yes,no,no,no,no,1,15,15,15,15,15,2022-04-25_15h11.06.837,MID1.0,59.986922946756856,
,,,12,13,1650893132.245368,Mon Apr 25 15:25:32 2022,43,863.0701251998544,1,0.30000000000000004,0.3000159002840519,0.3000159002840519,False,0,400,4.125082608312368,13.351310200057924,179.48051990009844,876.4214349999093,5,1,2,neutral,2.2694731077062897,2.4058935859939083,3.9250985085964203,,,005,1,yes,yes,no,no,no,no,1,15,15,15,15,15,2022-04-25_15h11.06.837,MID1.0,59.986922946756856,
,,,11,14,1650893145.5965865,Mon Apr 25 15:25:45 2022,44,876.4214944001287,1,0.2833333333333333,0.2831933000124991,0.2831933000124991,False,0,400,4.093653859104961,13.91630360018462,193.39688730007038,890.337802699767,5,1,2,neutral,2.701228960766457,2.5734128680778667,3.8768471591174603,,,005,1,yes,yes,no,no,no,no,1,15,15,15,15,15,2022-04-25_15h11.06.837,MID1.0,59.986922946756856,
,,,12,6,1650893159.513046,Mon Apr 25 15:25:59 2022,45,890.3378441999666,0,0.30000000000000004,,0.30000000000000004,False,-70,330,4.602815666701645,14.067548800259829,207.4644816000946,904.4053964000195,5,1,2,loss.high,2.308868443593383,2.609833694936242,4.602815666701645,,,005,1,yes,yes,no,no,no,no,1,15,15,15,15,15,2022-04-25_15h11.06.837,MID1.0,59.986922946756856,
,,,13,7,1650893173.5807025,Mon Apr 25 15:26:13 2022,46,904.4054350997321,1,0.31666666666666665,0.30056479992344975,0.30056479992344975,False,70,400,4.17983593698591,13.350285999942571,220.81481030024588,917.7557259998284,5,1,2,reward.high,2.5418781394837424,2.1129802471841685,3.9804007369093597,,,005,1,yes,yes,no,no,no,no,1,15,15,15,15,15,2022-04-25_15h11.06.837,MID1.0,59.986922946756856,
,,,13,7,1650893186.9303575,Mon Apr 25 15:26:26 2022,47,917.755770499818,1,0.31666666666666665,0.30028209974989295,0.30028209974989295,False,0,400,3.2933667358011007,12.550378900021315,233.36523739993572,930.3061525998637,5,1,2,loss.high,2.4792358251288533,2.2530665427912027,3.0936488355509937,,,005,1,yes,yes,no,no,no,no,1,15,15,15,15,15,2022-04-25_15h11.06.837,MID1.0,59.986922946756856,
,,,10,9,1650893199.4807231,Mon Apr 25 15:26:39 2022,48,930.3061919999309,0,0.26666666666666666,,0.26666666666666666,False,0,400,4.652532818261534,14.216519800014794,247.58180030016229,944.5227155997418,5,1,2,reward.low,2.3088909472571686,2.7016550141270272,4.652532818261534,,,005,1,yes,yes,no,no,no,no,1,15,15,15,15,15,2022-04-25_15h11.06.837,MID1.0,59.986922946756856,
,,,13,7,1650893213.6973681,Mon Apr 25 15:26:53 2022,49,944.5227572997101,1,0.31666666666666665,0.3172312998212874,0.3172312998212874,False,0,400,4.067899097222835,13.567505999933928,261.1493514003232,958.090266500134,5,1,2,loss.low,2.5491193539928645,2.419188413361553,3.885130397044122,,,005,1,yes,yes,no,no,no,no,1,15,15,15,15,15,2022-04-25_15h11.06.837,MID1.0,59.986922946756856,
,,,13,8,1650893227.2648633,Mon Apr 25 15:27:07 2022,50,958.090324900113,1,0.31666666666666665,0.3168182000517845,0.3168182000517845,False,0,400,4.970769631676376,14.783323099836707,275.9327384000644,972.8736548000015,5,1,2,loss.high,2.6255173544050194,2.6293639231007546,4.78758783172816,,,005,1,yes,yes,no,no,no,no,1,15,15,15,15,15,2022-04-25_15h11.06.837,MID1.0,59.986922946756856,
,,,13,8,1650893242.048977,Mon Apr 25 15:27:22 2022,51,972.8737077000551,0,0.31666666666666665,,0.31666666666666665,False,-10,390,4.610013944096863,14.08430019998923,290.0170946000144,986.958009599708,5,1,2,loss.low,2.4683612122316845,2.4720911818440072,4.610013944096863,,,005,1,yes,yes,no,no,no,no,1,15,15,15,15,15,2022-04-25_15h11.06.837,MID1.0,59.986922946756856,
,,,11,15,1650893256.1331034,Mon Apr 25 15:27:36 2022,52,986.9580466998741,0,0.2833333333333333,,0.2833333333333333,False,0,390,4.0695272563025355,13.550071000121534,303.5672059999779,1000.508121300023,5,1,2,neutral,2.650904885493219,2.2743814751156606,4.0695272563025355,,,005,1,yes,yes,no,no,no,no,1,15,15,15,15,15,2022-04-25_15h11.06.837,MID1.0,59.986922946756856,
,,,12,8,1650893269.6828759,Mon Apr 25 15:27:49 2022,53,1000.5081604998559,1,0.30000000000000004,0.2832701001316309,0.2832701001316309,False,70,460,3.7365186354145408,13.249769699759781,316.8170187002979,1013.7579335998744,5,1,2,reward.high,2.3699995119823143,2.6005998322507367,3.5197887355461717,,,005,1,yes,yes,no,no,no,no,1,15,15,15,15,15,2022-04-25_15h11.06.837,MID1.0,59.986922946756856,
,,,12,9,1650893282.9332952,Mon Apr 25 15:28:02 2022,54,1013.7579715996981,0,0.30000000000000004,,0.30000000000000004,False,0,460,3.9729929715394974,13.217461199965328,330.0345213999972,1026.9754363996908,5,1,2,reward.high,2.229603541723918,2.497601243609097,3.9729929715394974,,,005,1,yes,yes,no,no,no,no,1,15,15,15,15,15,2022-04-25_15h11.06.837,MID1.0,59.986922946756856,
,,,12,16,1650893296.1507297,Mon Apr 25 15:28:16 2022,55,1026.9754789001308,1,0.30000000000000004,0.30032919999212027,0.30032919999212027,False,0,460,5.05251591745764,14.733889900147915,344.7684594001621,1041.709376099985,5,1,2,neutral,2.5429119387990795,2.5716596063575707,4.85284511744976,,,005,1,yes,yes,no,no,no,no,1,15,15,15,15,15,2022-04-25_15h11.06.837,MID1.0,59.986922946756856,
,,,12,9,1650893310.8842902,Mon Apr 25 15:28:30 2022,56,1041.7094386997633,1,0.30000000000000004,0.2836759998463094,0.2836759998463094,False,0,460,3.777399537153542,13.267029999755323,358.0355560001917,1054.9764716997743,5,1,2,loss.high,2.733743950317148,2.204639047733508,3.5610755369998515,,,005,1,yes,yes,no,no,no,no,1,15,15,15,15,15,2022-04-25_15h11.06.837,MID1.0,59.986922946756856,
,,,12,17,1650893324.151686,Mon Apr 25 15:28:44 2022,57,1054.976514799986,1,0.30000000000000004,0.2836803002282977,0.2836803002282977,False,0,460,4.4941889136098325,14.333697100169957,372.3692995002493,1069.310214499943,5,1,2,neutral,2.674978378636297,2.6458338260417804,4.27786921383813,,,005,1,yes,yes,no,no,no,no,1,15,15,15,15,15,2022-04-25_15h11.06.837,MID1.0,59.986922946756856,
,,,14,9,1650893338.4855053,Mon Apr 25 15:28:58 2022,58,1069.31025339989,0,0.33333333333333337,,0.33333333333333337,False,-10,450,4.751806051470339,13.834024799987674,386.20336630009115,1083.144281399902,5,1,2,loss.low,2.1422507661627606,2.377903109532781,4.751806051470339,0.5002497001551092,,005,1,yes,yes,no,no,no,no,1,15,15,15,15,15,2022-04-25_15h11.06.837,MID1.0,59.986922946756856,
,,,11,18,1650893352.3192499,Mon Apr 25 15:29:12 2022,59,1083.144376100041,0,0.2833333333333333,,0.2833333333333333,False,0,450,3.688513877335936,13.000063099898398,399.20353010017425,1096.144447099883,5,1,2,neutral,2.2391113433404826,2.526589292450808,3.688513877335936,,,005,1,yes,yes,no,no,no,no,1,15,15,15,15,15,2022-04-25_15h11.06.837,MID1.0,59.986922946756856,
,,,12,19,1650893365.3192382,Mon Apr 25 15:29:25 2022,60,1096.1445079999976,1,0.30000000000000004,0.2995795998722315,0.2995795998722315,False,0,450,18.20042040012777,27.100535800214857,426.3041298002936,1123.24504469987,5,1,2,neutral,2.2561110841925256,2.098876377393026,18,,,005,1,yes,yes,no,no,no,no,1,15,15,15,15,15,2022-04-25_15h11.06.837,MID1.0,59.986922946756856,
C:\Users\Lab\Desktop\MID\orders\7525.csv,1650893439.539079,Mon Apr 25 15:30:39 2022,,,,,,,,,,,,,,,,,,,1,,,,,,,,005,1,yes,yes,no,no,no,no,1,15,15,15,15,15,2022-04-25_15h11.06.837,MID1.0,59.986922946756856,
,,,13,10,1650893444.555086,Mon Apr 25 15:30:44 2022,61,1175.3799258000217,1,0.31666666666666665,0.30042200023308396,0.30042200023308396,False,70,520,4.901533779222518,13.567214199807495,18.58278790023178,1188.9471422997303,5,1,3,reward.high,2.0017480345559306,2.1065095363301225,4.701955779455602,,,005,1,yes,yes,no,no,no,no,1,15,15,15,15,15,2022-04-25_15h11.06.837,MID1.0,59.986922946756856,
,,,12,10,1650893458.1222415,Mon Apr 25 15:30:58 2022,62,1188.9471792001277,1,0.30000000000000004,0.3007650999352336,0.3007650999352336,False,0,520,4.233263182453811,14.100149699952453,32.68297770014033,1203.0473325001076,5,1,3,loss.high,2.6086768131353892,2.7009515248355456,4.034028282389045,,,005,1,yes,yes,no,no,no,no,1,15,15,15,15,15,2022-04-25_15h11.06.837,MID1.0,59.986922946756856,
,,,11,10,1650893472.2226408,Mon Apr 25 15:31:12 2022,63,1203.0473710000515,1,0.2833333333333333,0.28373549971729517,0.28373549971729517,False,10,530,4.255540846846998,13.567086200229824,46.25010860012844,1216.6144648999907,5,1,3,reward.low,2.648265464871656,2.123705337930005,4.039276346564293,,,005,1,yes,yes,no,no,no,no,1,15,15,15,15,15,2022-04-25_15h11.06.837,MID1.0,59.986922946756856,
,,,11,11,1650893485.7893734,Mon Apr 25 15:31:25 2022,64,1216.6145218997262,0,0.2833333333333333,,0.2833333333333333,False,-70,460,4.351592287886888,13.717035199981183,59.967203699983656,1230.3315580999479,5,1,3,loss.high,2.39001623733202,2.4289484744658694,4.351592287886888,,,005,1,yes,yes,no,no,no,no,1,15,15,15,15,15,2022-04-25_15h11.06.837,MID1.0,59.986922946756856,
,,,12,20,1650893499.5069506,Mon Apr 25 15:31:39 2022,65,1230.3315940997563,1,0.30000000000000004,0.2999853999353945,0.2999853999353945,False,0,460,4.611539023928344,14.350405300036073,74.31764850020409,1244.6820029998198,5,1,3,neutral,2.462600083090365,2.721393511106726,4.411524423863739,,,005,1,yes,yes,no,no,no,no,1,15,15,15,15,15,2022-04-25_15h11.06.837,MID1.0,59.986922946756856,
,,,11,11,1650893513.85719,Mon Apr 25 15:31:53 2022,66,1244.6820437000133,1,0.2833333333333333,0.28323529986664653,0.28323529986664653,False,10,470,4.857745861168951,13.450502499938011,87.76819540001452,1258.132549900096,5,1,3,reward.low,2.0073302352102473,2.0422993335523643,4.640981161035597,,,005,1,yes,yes,no,no,no,no,1,15,15,15,15,15,2022-04-25_15h11.06.837,MID1.0,59.986922946756856,
,,,11,21,1650893527.3075917,Mon Apr 25 15:32:07 2022,67,1258.1325888996944,1,0.2833333333333333,0.2841749000363052,0.2841749000363052,False,0,470,4.252253709360957,14.183133800048381,101.95137190027162,1272.3157267998904,5,1,3,neutral,2.6751497501390986,2.693402816890739,4.036428609397262,,,005,1,yes,yes,no,no,no,no,1,15,15,15,15,15,2022-04-25_15h11.06.837,MID1.0,59.986922946756856,
,,,13,11,1650893541.4910948,Mon Apr 25 15:32:21 2022,68,1272.3157683997415,1,0.31666666666666665,0.2997628003358841,0.2997628003358841,False,70,540,3.7500226232223213,13.26698699966073,115.21840499993414,1285.5827600001357,5,1,3,reward.high,2.350798175903037,2.6458691830048338,3.5497854235582054,,,005,1,yes,yes,no,no,no,no,1,15,15,15,15,15,2022-04-25_15h11.06.837,MID1.0,59.986922946756856,
,,,15,10,1650893554.757942,Mon Apr 25 15:32:34 2022,69,1285.582804299891,1,0.35,0.35039780009537935,0.35039780009537935,False,0,540,5.074470013380051,14.300453000236303,129.51890560006723,1299.8832601001486,5,1,3,loss.low,2.6792731023742817,2.029051717428956,4.92486781347543,,,005,1,yes,yes,no,no,no,no,1,15,15,15,15,15,2022-04-25_15h11.06.837,MID1.0,59.986922946756856,
,,,11,22,1650893569.0585926,Mon Apr 25 15:32:49 2022,70,1299.8833002001047,1,0.2833333333333333,0.26678700000047684,0.26678700000047684,False,0,540,4.355292288120836,13.983277699910104,143.50222710007802,1313.866581399925,5,1,3,neutral,2.4434126600972377,2.6602231368306093,4.122079288121313,,,005,1,yes,yes,no,no,no,no,1,15,15,15,15,15,2022-04-25_15h11.06.837,MID1.0,59.986922946756856,
,,,10,23,1650893583.0418937,Mon Apr 25 15:33:03 2022,71,1313.8666199999861,1,0.26666666666666666,0.26796160032972693,0.26796160032972693,False,0,540,4.464871675241739,14.10134040005505,157.60360939987004,1327.9679638999514,5,1,3,neutral,2.5282162429066375,2.5696144483517855,4.2328332755714655,,,005,1,yes,yes,no,no,no,no,1,15,15,15,15,15,2022-04-25_15h11.06.837,MID1.0,59.986922946756856,
,,,12,12,1650893597.1429129,Mon Apr 25 15:33:17 2022,72,1327.9680212000385,0,0.30000000000000004,,0.30000000000000004,False,0,540,4.044731892645359,13.43348369980231,171.03715609991923,1341.4015122000128,5,1,3,reward.high,2.5998974423855543,2.2334242604556493,4.044731892645359,,,005,1,yes,yes,no,no,no,no,1,15,15,15,15,15,2022-04-25_15h11.06.837,MID1.0,59.986922946756856,
,,,13,13,1650893610.5762463,Mon Apr 25 15:33:30 2022,73,1341.4015683000907,0,0.31666666666666665,,0.31666666666666665,False,0,540,3.4521951056085527,13.066631000023335,184.10384640004486,1354.468200800009,5,1,3,reward.high,2.3639220637851395,2.6991917784907855,3.4521951056085527,,,005,1,yes,yes,no,no,no,no,1,15,15,15,15,15,2022-04-25_15h11.06.837,MID1.0,59.986922946756856,
,,,15,11,1650893623.6434274,Mon Apr 25 15:33:43 2022,74,1354.4682371998206,1,0.35,0.3485225001350045,0.3485225001350045,False,0,540,4.56924894452095,13.816797799896449,197.9206842998974,1368.2850391999818,5,1,3,loss.low,2.073366691416595,2.6394045444903895,4.417771444655955,,,005,1,yes,yes,no,no,no,no,1,15,15,15,15,15,2022-04-25_15h11.06.837,MID1.0,59.986922946756856,
,,,10,12,1650893637.4604905,Mon Apr 25 15:33:57 2022,75,1368.2850855998695,1,0.26666666666666666,0.2503408002667129,0.2503408002667129,False,10,550,3.3297066637314856,12.51737800007686,210.43811180023476,1380.8024661997333,5,1,3,reward.low,2.409313182462938,2.2222375222481787,3.0800474639981985,,,005,1,yes,yes,no,no,no,no,1,15,15,15,15,15,2022-04-25_15h11.06.837,MID1.0,59.986922946756856,
,,,10,24,1650893649.9777431,Mon Apr 25 15:34:09 2022,76,1380.8025046000257,0,0.26666666666666666,,0.26666666666666666,False,0,550,4.4252584292553365,13.800354599952698,224.23850930016488,1394.6028641001321,5,1,3,neutral,2.2216906575486064,2.61005379864946,4.4252584292553365,,,005,1,yes,yes,no,no,no,no,1,15,15,15,15,15,2022-04-25_15h11.06.837,MID1.0,59.986922946756856,
,,,11,25,1650893663.778305,Mon Apr 25 15:34:23 2022,77,1394.6029072999954,1,0.2833333333333333,0.2670581000857055,0.2670581000857055,False,0,550,4.321223275270313,14.10009380010888,238.33865140005946,1408.703007800039,5,1,3,neutral,2.6746904166066088,2.578992331691552,4.0882813753560185,,,005,1,yes,yes,no,no,no,no,1,15,15,15,15,15,2022-04-25_15h11.06.837,MID1.0,59.986922946756856,
,,,10,13,1650893677.8777952,Mon Apr 25 15:34:37 2022,78,1408.7030818001367,0,0.26666666666666666,,0.26666666666666666,False,0,550,4.5970837213099,14.183928600046784,252.5226567001082,1422.887011299841,5,1,3,reward.low,2.5357243689941242,2.517824785783887,4.5970837213099,,1.9503395004430786,005,1,yes,yes,no,no,no,no,1,15,15,15,15,15,2022-04-25_15h11.06.837,MID1.0,59.986922946756856,
,,,12,12,1650893692.0616682,Mon Apr 25 15:34:52 2022,79,1422.8870525998063,0,0.30000000000000004,,0.30000000000000004,False,-70,480,4.857638540212065,13.917325699701905,266.4400268001482,1436.804381299764,5,1,3,loss.high,2.294628478062805,2.2238918855437078,4.857638540212065,,,005,1,yes,yes,no,no,no,no,1,15,15,15,15,15,2022-04-25_15h11.06.837,MID1.0,59.986922946756856,
,,,11,26,1650893705.9794717,Mon Apr 25 15:35:05 2022,80,1436.8044197000563,0,0.2833333333333333,,0.2833333333333333,False,0,480,3.948685348033905,13.199396099895239,279.63946500001475,1450.003819799982,5,1,3,neutral,2.4676447037491016,2.2356252277386375,3.948685348033905,,,005,1,yes,yes,no,no,no,no,1,15,15,15,15,15,2022-04-25_15h11.06.837,MID1.0,59.986922946756856,
,,,12,27,1650893719.178577,Mon Apr 25 15:35:19 2022,81,1450.003859499935,0,0.30000000000000004,,0.30000000000000004,False,0,480,3.614537542220205,13.218027199618518,292.85753800021484,1463.2218947997317,5,1,3,neutral,2.6771154262241907,2.3985236759181134,3.614537542220205,,,005,1,yes,yes,no,no,no,no,1,15,15,15,15,15,2022-04-25_15h11.06.837,MID1.0,59.986922946756856,
,,,14,12,1650893732.3973188,Mon Apr 25 15:35:32 2022,82,1463.2219591997564,1,0.33333333333333337,0.3169919000938535,0.3169919000938535,False,0,480,3.910923174582422,12.933159300126135,305.790765600279,1476.1551199997775,5,1,3,loss.low,2.1816823244444095,2.3025872042635456,3.7279150746762753,,,005,1,yes,yes,no,no,no,no,1,15,15,15,15,15,2022-04-25_15h11.06.837,MID1.0,59.986922946756856,
,,,13,13,1650893745.3304214,Mon Apr 25 15:35:45 2022,83,1476.1551950001158,1,0.31666666666666665,0.3002178999595344,0.3002178999595344,False,0,480,3.8590568201616406,13.350058400072157,319.1409022002481,1489.5052565997466,5,1,3,loss.high,2.363074521883391,2.594815331918653,3.659274720121175,,,005,1,yes,yes,no,no,no,no,1,15,15,15,15,15,2022-04-25_15h11.06.837,MID1.0,59.986922946756856,
,,,13,14,1650893758.6804187,Mon Apr 25 15:35:58 2022,84,1489.5053165997379,1,0.31666666666666665,0.31674779998138547,0.31674779998138547,False,0,480,4.337836880236864,13.50034959986806,332.64131490001455,1503.005669400096,5,1,3,loss.high,2.0866854217019863,2.5177802939433604,4.15458468021825,,,005,1,yes,yes,no,no,no,no,1,15,15,15,15,15,2022-04-25_15h11.06.837,MID1.0,59.986922946756856,
,,,11,14,1650893772.1804578,Mon Apr 25 15:36:12 2022,85,1503.0057060997933,0,0.2833333333333333,,0.2833333333333333,False,0,480,4.5403043841943145,13.950862500350922,346.5922195999883,1516.9565757000819,5,1,3,reward.low,2.3670660611824133,2.4895918933325447,4.5403043841943145,,,005,1,yes,yes,no,no,no,no,1,15,15,15,15,15,2022-04-25_15h11.06.837,MID1.0,59.986922946756856,
,,,14,13,1650893786.1315572,Mon Apr 25 15:36:26 2022,86,1516.9566290001385,0,0.33333333333333337,,0.33333333333333337,False,-10,470,4.734811921603978,14.150039199739695,360.74231600016356,1531.1066704997793,5,1,3,loss.low,2.1293344463338144,2.7342735720449127,4.734811921603978,,,005,1,yes,yes,no,no,no,no,1,15,15,15,15,15,2022-04-25_15h11.06.837,MID1.0,59.986922946756856,
,,,14,14,1650893800.2820342,Mon Apr 25 15:36:40 2022,87,1531.1067152000032,1,0.33333333333333337,0.3331141001544893,0.3331141001544893,False,70,540,4.8335695755667984,14.133931600023061,374.87629620032385,1545.2406512997113,5,1,3,reward.high,2.4014296253444627,2.343679149635136,4.666683675721288,,,005,1,yes,yes,no,no,no,no,1,15,15,15,15,15,2022-04-25_15h11.06.837,MID1.0,59.986922946756856,
,,,13,28,1650893814.4157546,Mon Apr 25 15:36:54 2022,88,1545.2406937000342,1,0.31666666666666665,0.3168096002191305,0.3168096002191305,False,0,540,4.890278283040971,14.466739899944514,389.34308220027015,1559.7074366998859,5,1,3,neutral,2.6184098420781083,2.4079758370644413,4.707087883260101,,,005,1,yes,yes,no,no,no,no,1,15,15,15,15,15,2022-04-25_15h11.06.837,MID1.0,59.986922946756856,
,,,15,14,1650893828.882716,Mon Apr 25 15:37:08 2022,89,1559.7074758000672,0,0.35,,0.35,False,-10,530,3.9830375406891108,13.633903299923986,402.9770279000513,1573.3413824001327,5,1,3,loss.low,2.428062017308548,2.691969973151572,3.833174740895629,0.5341578000225127,,005,1,yes,yes,no,no,no,no,1,15,15,15,15,15,2022-04-25_15h11.06.837,MID1.0,59.986922946756856,
,,,13,29,1650893842.5166576,Mon Apr 25 15:37:22 2022,90,1573.3414207999595,1,0.31666666666666665,0.3166614999063313,0.3166614999063313,False,0,530,18.18333850009367,27.467215600423515,430.44428519997746,1600.8086397000588,5,1,3,neutral,2.1961630547302775,2.535011282598134,18,,,005,1,yes,yes,no,no,no,no,1,15,15,15,15,15,2022-04-25_15h11.06.837,MID1.0,59.986922946756856,
